Folder: FIZ228/_downloads/7eaf1e70bc187917fd4e42b491723bc3

Note: README.md
[Processed version: https://emresururi.github.io/FIZ228/](https://emresururi.github.io/FIZ228/)

File: 01_GaFeO3_XRD.csv
2theta/Degree,Intensity_GFO(Ga/Fe=1),Normalised_XRD_different ratio,Ga/Fe=1,Normalised_XRD_different ratio,Ga/Fe=0.5
20,86.06418,20,6.26E-04,20,0.01343
20.25584,826.054,20.25584,0.00601,20.25584,0.01844
20.51167,1149.3,20.51167,0.00837,20.51167,0.00375
20.76751,87.73283,20.76751,6.39E-04,20.76751,0.00661
21.02334,30.6928,21.02334,2.23E-04,21.02334,0.00379
21.27918,15.52358,21.27918,1.13E-04,21.27918,0.00405
21.53502,5.66476,21.53502,4.12E-05,21.53502,0.00436
21.79085,9.63181,21.79085,7.01E-05,21.79085,0.00765
22.04669,24.32811,22.04669,1.77E-04,22.04669,0.00607
22.30252,155.9082,22.30252,0.00113,22.30252,0.00338
22.55836,687.8426,22.55836,0.00501,22.55836,0.00716
22.8142,40.17723,22.8142,2.92E-04,22.8142,0.00654
23.07003,13.03349,23.07003,9.49E-05,23.07003,0.01129
23.32587,6.35747,23.32587,4.63E-05,23.32587,0.01051
23.58171,0.28628,23.58171,2.08E-06,23.58171,0.01134
23.83754,0,23.83754,0,23.83754,0.01413
24.09338,0,24.09338,0,24.09338,0.01367
24.34921,0,24.34921,0,24.34921,0.021
24.60505,0,24.60505,0,24.60505,0.01945
24.86089,0,24.86089,0,24.86089,0.02152
25.11672,0,25.11672,0,25.11672,0.01772
25.37256,0,25.37256,0,25.37256,0.0189
25.62839,0,25.62839,0,25.62839,0.01937
25.88423,0,25.88423,0,25.88423,0.02099
26.14007,22.5881,26.14007,1.64E-04,26.14007,0.02033
26.3959,43.908,26.3959,3.20E-04,26.3959,0.02591
26.65174,119.554,26.65174,8.70E-04,26.65174,0.02874
26.90757,997.39,26.90757,0.00726,26.90757,0.04853
27.16341,1571.69,27.16341,0.01144,27.16341,0.03039
27.41925,436.774,27.41925,0.00318,27.41925,0.03053
27.67508,1056.47,27.67508,0.00769,27.67508,0.04227
27.93092,18558.7,27.93092,0.13509,27.93092,0.2342
28.18675,3373.18,28.18675,0.02455,28.18676,0.03378
28.44259,750.8326,28.44259,0.00547,28.44259,0.02945
28.69843,4676.84,28.69843,0.03404,28.69843,0.04285
28.95426,315.581,28.95426,0.0023,28.95426,0.03301
29.2101,55.9923,29.2101,4.08E-04,29.2101,0.03174
29.46594,24.59298,29.46594,1.79E-04,29.46594,0.03244
29.72177,278.375,29.72177,0.00203,29.72177,0.03567
29.97761,614.262,29.97761,0.00447,29.97761,0.03959
30.23344,2641.85,30.23344,0.01923,30.23344,0.06609
30.48928,51467.2,30.48928,0.37462,30.48928,0.10245
30.74512,2182.11,30.74512,0.01588,30.74512,0.03841
31.00095,564.9754,31.00095,0.00411,31.00095,0.03861
31.25679,258.333,31.25679,0.00188,31.25679,0.0384
31.51262,16.81344,31.51262,1.22E-04,31.51262,0.03665
31.76846,36.75007,31.76846,2.68E-04,31.76846,0.04086
32.0243,137.0224,32.0243,9.97E-04,32.0243,0.04034
32.28013,3739.27,32.28013,0.02722,32.28013,0.05122
32.53597,1050.98,32.53597,0.00765,32.53597,0.04205
32.7918,2185.56,32.7918,0.01591,32.7918,0.05395
33.04764,13018,33.04764,0.09476,33.04764,0.31387
33.30348,86132.1,33.30348,0.62695,33.30348,0.12913
33.55931,4019.25,33.55931,0.02926,33.55931,0.04665
33.81515,1244.07,33.81515,0.00906,33.81515,0.03921
34.07098,597.338,34.07098,0.00435,34.07099,0.04305
34.32682,33.70936,34.32682,2.45E-04,34.32682,0.03998
34.58266,191.2721,34.58266,0.00139,34.58266,0.04244
34.83849,422.864,34.83849,0.00308,34.83849,0.0438
35.09433,1379.99,35.09433,0.01004,35.09433,0.05589
35.35017,23044.2,35.35017,0.16774,35.35017,0.19032
35.606,15826,35.606,0.1152,35.606,0.09599
35.86184,1748.24,35.86184,0.01273,35.86184,0.05746
36.11767,789,36.11767,0.00574,36.11767,0.03988
36.37351,950.226,36.37351,0.00692,36.37351,0.04426
36.62935,3937.97,36.62935,0.02866,36.62935,0.08882
36.88518,30621.2,36.88518,0.22289,36.88518,0.26612
37.14102,6359.74,37.14102,0.04629,37.14102,0.04641
37.39685,1000.06,37.39685,0.00728,37.39685,0.04138
37.65269,437.216,37.65269,0.00318,37.65269,0.04455
37.90853,283.765,37.90853,0.00207,37.90853,0.0463
38.16436,628.036,38.16436,0.00457,38.16436,0.04723
38.4202,4967.67,38.4202,0.03616,38.4202,0.07311
38.67603,935.6504,38.67603,0.00681,38.67604,0.04049
38.93187,196.457,38.93187,0.00143,38.93187,0.04473
39.18771,170.899,39.18771,0.00124,39.18771,0.04424
39.44354,395.951,39.44354,0.00288,39.44354,0.04899
39.69938,9720.29,39.69938,0.07075,39.69938,0.08967
39.95521,1253.42,39.95521,0.00912,39.95522,0.04739
40.21105,550.409,40.21105,0.00401,40.21105,0.04869
40.46689,5223.79,40.46689,0.03802,40.46689,0.08303
40.72272,9284.22,40.72272,0.06758,40.72272,0.05537
40.97856,726.284,40.97856,0.00529,40.97856,0.04749
41.2344,737.089,41.2344,0.00537,41.2344,0.05348
41.49023,4252.96,41.49023,0.03096,41.49023,0.05636
41.74607,4606.4,41.74607,0.03353,41.74607,0.16567
42.0019,6511.98,42.0019,0.0474,42.0019,0.05431
42.25774,590.836,42.25774,0.0043,42.25774,0.04703
42.51358,607.906,42.51358,0.00442,42.51358,0.04758
42.76941,103.215,42.76941,7.51E-04,42.76941,0.04452
43.02525,15.16166,43.02525,1.10E-04,43.02525,0.04261
43.28108,4.67155,43.28108,3.40E-05,43.28109,0.04958
43.53692,3.94677,43.53692,2.87E-05,43.53692,0.04192
43.79276,56.27882,43.79276,4.10E-04,43.79276,0.04494
44.04859,32.51993,44.04859,2.37E-04,44.04859,0.04497
44.30443,12.91006,44.30443,9.40E-05,44.30443,0.04618
44.56026,22.62064,44.56026,1.65E-04,44.56027,0.046
44.8161,60.48527,44.8161,4.40E-04,44.8161,0.04241
45.07194,280.459,45.07194,0.00204,45.07194,0.05222
45.32777,2820.95,45.32777,0.02053,45.32777,0.05542
45.58361,792.888,45.58361,0.00577,45.58361,0.05734
45.83944,4373.59,45.83944,0.03183,45.83945,0.07784
46.09528,5176.45,46.09528,0.03768,46.09528,0.07074
46.35112,5202.42,46.35112,0.03787,46.35112,0.05354
46.60695,484.74,46.60695,0.00353,46.60695,0.042
46.86279,256.429,46.86279,0.00187,46.86279,0.0422
47.11863,488.367,47.11863,0.00355,47.11863,0.05176
47.37446,9168.89,47.37446,0.06674,47.37446,0.08688
47.6303,4185.79,47.6303,0.03047,47.6303,0.05968
47.88613,364.527,47.88613,0.00265,47.88613,0.04972
48.14197,119.661,48.14197,8.71E-04,48.14197,0.04506
48.39781,101.257,48.39781,7.37E-04,48.39781,0.04772
48.65364,1120.35,48.65364,0.00815,48.65364,0.05091
48.90948,132.936,48.90948,9.68E-04,48.90948,0.0471
49.16531,177.331,49.16531,0.00129,49.16532,0.04835
49.42115,2342.16,49.42115,0.01705,49.42115,0.06748
49.67699,2167.08,49.67699,0.01577,49.67699,0.07795
49.93282,2358.57,49.93282,0.01717,49.93282,0.04532
50.18866,139.194,50.18866,0.00101,50.18866,0.04034
50.44449,86.11357,50.44449,6.27E-04,50.4445,0.04641
50.70033,187.069,50.70033,0.00136,50.70033,0.0541
50.95617,1902.56,50.95617,0.01385,50.95617,0.05423
51.212,147.576,51.212,0.00107,51.212,0.04561
51.46784,50.29409,51.46784,3.66E-04,51.46784,0.04692
51.72367,151.547,51.72367,0.0011,51.72368,0.0439
51.97951,15.53374,51.97951,1.13E-04,51.97951,0.04372
52.23535,18.37567,52.23535,1.34E-04,52.23535,0.04832
52.49118,106.336,52.49118,7.74E-04,52.49118,0.04736
52.74702,236.8979,52.74702,0.00172,52.74702,0.0461
53.00286,878.985,53.00286,0.0064,53.00286,0.07365
53.25869,14821.5,53.25869,0.10788,53.25869,0.17327
53.51453,8299.36,53.51453,0.06041,53.51453,0.05366
53.77036,573.222,53.77036,0.00417,53.77037,0.04776
54.0262,215.919,54.0262,0.00157,54.0262,0.04868
54.28204,445.87,54.28204,0.00325,54.28204,0.06412
54.53787,597.501,54.53787,0.00435,54.53787,0.04571
54.79371,41.58215,54.79371,3.03E-04,54.79371,0.04832
55.04954,36.84719,55.04954,2.68E-04,55.04955,0.04886
55.30538,217.165,55.30538,0.00158,55.30538,0.05287
55.56122,1723.07,55.56122,0.01254,55.56122,0.0517
55.81705,294.903,55.81705,0.00215,55.81705,0.05176
56.07289,72.73191,56.07289,5.29E-04,56.07289,0.05131
56.32872,419.278,56.32872,0.00305,56.32873,0.05336
56.58456,888.925,56.58456,0.00647,56.58456,0.04816
56.8404,121.889,56.8404,8.87E-04,56.8404,0.04403
57.09623,25.42944,57.09623,1.85E-04,57.09623,0.0516
57.35207,25.805,57.35207,1.88E-04,57.35207,0.04546
57.6079,184.667,57.6079,0.00134,57.60791,0.05548
57.86374,411.078,57.86374,0.00299,57.86374,0.05147
58.11958,69.20722,58.11958,5.04E-04,58.11958,0.05016
58.37541,147.012,58.37541,0.00107,58.37541,0.0564
58.63125,1514.7,58.63125,0.01103,58.63125,0.05199
58.88709,806.693,58.88709,0.00587,58.88709,0.07358
59.14292,5784.83,59.14292,0.04211,59.14292,0.08154
59.39876,3373.66,59.39876,0.02456,59.39876,0.05473
59.65459,1403.68,59.65459,0.01022,59.6546,0.0478
59.91043,193.605,59.91043,0.00141,59.91043,0.05005
60.16627,170.625,60.16627,0.00124,60.16627,0.05209
60.4221,332.471,60.4221,0.00242,60.4221,0.05658
60.67794,3182.33,60.67794,0.02316,60.67794,0.10997
60.93377,9077.59,60.93377,0.06607,60.93378,0.05896
61.18961,1273.79,61.18961,0.00927,61.18961,0.06492
61.44545,8270.8,61.44545,0.0602,61.44545,0.35796
61.70128,27191.9,61.70128,0.19793,61.70128,0.09081
61.95712,2503.48,61.95712,0.01822,61.95712,0.06588
62.21295,1464.58,62.21295,0.01066,62.21296,0.05475
62.46879,852.2906,62.46879,0.0062,62.46879,0.05429
62.72463,1470.77,62.72463,0.01071,62.72463,0.05669
62.98046,401.903,62.98046,0.00293,62.98046,0.05543
63.2363,892.452,63.2363,0.0065,63.2363,0.05852
63.49213,3568.84,63.49213,0.02598,63.49214,0.20297
63.74797,12097.3,63.74797,0.08805,63.74797,0.11214
64.00381,11465.5,64.00381,0.08346,64.00381,0.09267
64.25964,2460.36,64.25964,0.01791,64.25965,0.05341
64.51548,1896.09,64.51548,0.0138,64.51548,0.0533
64.77132,501.01,64.77132,0.00365,64.77132,0.05214
65.02715,111.052,65.02715,8.08E-04,65.02715,0.051
65.28299,91.87131,65.28299,6.69E-04,65.28299,0.04827
65.53882,344.173,65.53882,0.00251,65.53883,0.06609
65.79466,1061.39,65.79466,0.00773,65.79466,0.05219
66.0505,1080.53,66.0505,0.00787,66.0505,0.05857
66.30633,4714.6,66.30633,0.03432,66.30633,0.1088
66.56217,5628.87,66.56217,0.04097,66.56217,0.05615
66.818,1213.62,66.818,0.00883,66.81801,0.05592
67.07384,2004.87,67.07384,0.01459,67.07384,0.05153
67.32968,390.059,67.32968,0.00284,67.32968,0.05033
67.58551,280.402,67.58551,0.00204,67.58551,0.05242
67.84135,509.482,67.84135,0.00371,67.84135,0.05132
68.09718,2551.69,68.09718,0.01857,68.09719,0.08962
68.35302,4708.24,68.35302,0.03427,68.35302,0.0571
68.60886,685.215,68.60886,0.00499,68.60886,0.05005
68.86469,167.867,68.86469,0.00122,68.8647,0.0524
69.12053,79.03249,69.12053,5.75E-04,69.12053,0.04755
69.37637,178.922,69.37637,0.0013,69.37637,0.05393
69.6322,299.499,69.6322,0.00218,69.6322,0.05209
69.88804,81.13883,69.88804,5.91E-04,69.88804,0.0515
70.00612,19.49992,70.00612,1.42E-04,70.00612,0.04967